aX,aY,aZ,gX,gY,gZ
-0.790,-1.502,-1.426,865.723,-19.226,-212.830
-0.525,-2.125,-0.948,916.748,-82.336,-253.845
0.165,-2.686,0.247,866.943,-158.875,-263.550
0.175,-2.591,1.745,694.641,-286.560,-219.238
0.116,-2.214,3.155,494.690,-385.803,-128.052
0.004,-1.845,3.329,365.845,-297.302,-32.288
0.004,-1.793,2.548,263.489,-99.243,4.883
0.175,-1.919,1.271,194.885,28.687,19.653
0.035,-1.758,0.179,128.967,32.959,40.161
-0.123,-1.563,-0.098,84.778,-35.278,31.494
-0.026,-1.532,0.230,76.782,-86.121,-6.409
0.173,-1.599,0.763,74.463,-98.145,-33.142
0.251,-1.579,1.235,54.321,-92.285,-24.902
0.185,-1.481,1.393,15.503,-65.918,2.808
0.072,-1.362,1.277,-27.771,-30.396,31.250
-0.060,-1.226,1.094,-68.237,-7.812,50.781
-0.155,-1.091,0.979,-103.821,-2.625,58.594
-0.202,-0.993,0.920,-132.812,-4.333,53.528
-0.177,-0.943,0.943,-158.936,-7.629,40.527
-0.186,-0.951,0.970,-187.500,-11.108,27.771
-0.190,-0.947,0.910,-213.867,-8.179,17.517
-0.151,-0.943,0.808,-231.201,2.747,9.644
-0.088,-0.953,0.774,-242.615,15.625,5.493
-0.080,-0.935,0.851,-251.282,26.306,7.874
-0.098,-0.882,0.901,-259.277,38.696,14.709
-0.096,-0.835,0.972,-274.353,54.810,20.752
-0.164,-0.835,1.004,-299.255,70.801,22.949
-0.248,-0.770,0.901,-319.824,86.121,18.433
-0.265,-0.711,0.751,-333.801,95.276,7.996
-0.258,-0.715,0.611,-344.543,90.271,-1.831
-0.243,-0.667,0.437,-342.651,72.876,-5.798
-0.174,-0.510,0.296,-321.289,47.852,-8.240
-0.068,-0.458,0.333,-290.100,22.522,-15.076
0.003,-0.424,0.519,-258.850,5.005,-14.954
-0.019,-0.381,0.669,-228.882,7.080,-11.841
-0.010,-0.345,0.747,-204.468,29.907,-8.667
0.008,-0.320,0.741,-190.430,55.603,-6.042
0.033,-0.301,0.686,-183.899,72.205,-3.784
0.071,-0.272,0.641,-181.152,74.341,-1.465
0.055,-0.281,0.592,-179.932,64.880,0.183
0.063,-0.214,0.510,-170.349,49.194,1.404
0.069,-0.129,0.489,-147.339,31.433,-1.465
0.075,-0.062,0.528,-118.469,17.456,-5.493
0.079,-0.037,0.640,-87.891,11.292,-9.216
0.075,-0.042,0.749,-63.416,14.832,-11.230
0.094,-0.041,0.800,-44.983,25.879,-11.353
0.123,-0.039,0.805,-30.396,39.124,-10.193
0.146,-0.058,0.807,-18.860,48.889,-7.507
0.176,-0.089,0.843,-11.414,51.086,-3.662
0.184,-0.109,0.920,-9.583,46.631,2.869
0.168,-0.106,0.987,-14.648,39.856,11.292
0.141,-0.078,1.008,-24.231,32.227,16.296
0.119,-0.055,1.001,-33.081,25.513,16.479
0.098,-0.033,0.963,-37.292,19.348,14.343
0.096,0.004,0.914,-34.363,13.916,11.414
0.078,0.034,0.894,-25.146,9.521,6.897
0.076,0.065,0.904,-12.817,6.958,0.854
0.091,0.058,0.928,-1.099,8.484,-4.944
0.110,0.032,0.943,8.972,14.221,-8.972
0.147,-0.002,0.970,16.418,21.179,-9.827
0.160,-0.026,0.988,19.714,27.954,-6.958
0.169,-0.041,0.990,19.226,33.569,-3.235
0.174,-0.040,0.972,12.390,31.372,-0.183
0.178,-0.036,0.948,-0.488,18.005,0.671
0.181,-0.036,0.946,-13.489,-1.343,-0.488
0.179,-0.037,0.947,-22.888,-17.395,-1.709
0.168,-0.015,0.941,-27.161,-26.794,-1.953
0.149,0.008,0.944,-24.536,-29.236,-2.625
0.141,0.025,0.950,-17.212,-25.452,-4.089
0.139,0.030,0.960,-7.324,-16.663,-5.066
0.139,0.036,0.972,2.930,-5.432,-4.883
0.137,0.040,0.967,12.024,6.409,-3.540
0.143,0.042,0.967,18.250,14.832,-2.319
0.159,0.016,0.970,21.301,18.127,-2.319
0.176,-0.001,0.974,18.311,15.625,-2.075
0.178,-0.009,0.985,10.498,6.958,-1.648
0.182,-0.012,0.995,0.732,-3.723,-2.136
0.180,-0.018,1.006,-6.897,-11.597,-2.319
0.171,-0.013,1.021,-11.414,-14.709,-1.404
0.149,-0.009,1.020,-13.367,-13.245,0.122
0.141,0.014,0.998,-11.841,-8.850,0.610
0.136,0.027,0.973,-6.897,-3.418,-0.061
0.140,0.032,0.965,0.366,2.563,-1.404
0.149,0.025,0.968,7.446,8.179,-2.380
0.159,0.013,0.972,11.414,12.878,-2.563
0.170,-0.001,0.979,13.245,15.503,-2.441
0.174,-0.010,0.984,12.146,16.479,-1.465
0.175,-0.010,0.982,9.155,15.320,-0.549
0.171,-0.011,0.978,4.761,11.230,-0.244
0.166,-0.007,0.976,0.916,6.348,-0.244
0.159,-0.001,0.973,-1.770,2.441,-0.366
0.158,-0.000,0.967,-2.441,1.282,-0.366
0.159,0.006,0.960,-1.282,1.709,0.000
0.158,0.005,0.959,0.061,2.625,0.244
0.158,0.004,0.962,0.671,3.723,0.610
0.152,0.008,0.959,0.977,4.211,0.732
0.153,0.014,0.955,1.160,4.456,0.366
0.155,0.009,0.952,1.953,4.395,-0.671
0.160,0.003,0.959,2.747,3.540,-1.038
0.161,-0.000,0.972,3.174,2.258,-1.160
0.163,-0.004,0.974,2.014,1.343,-1.343
0.165,-0.004,0.966,0.549,0.000,-1.343
0.165,0.004,0.954,0.549,-0.427,-1.282
0.164,0.004,0.954,2.075,-0.244,-1.282
0.166,0.005,0.960,4.150,0.549,-1.465
0.165,0.001,0.959,5.127,2.258,-1.221
0.162,0.005,0.960,5.615,3.845,-0.549
0.160,0.006,0.964,5.859,4.395,-0.061
0.150,0.006,0.971,5.432,4.395,0.183
0.145,0.007,0.974,4.761,3.967,-0.122
0.148,0.000,0.969,4.028,2.502,-1.160
0.155,-0.007,0.971,3.662,0.793,-1.892
0.160,-0.005,0.971,4.028,-0.366,-1.953
0.168,-0.010,0.965,4.639,-0.183,-2.258
0.182,-0.019,0.962,4.944,0.122,-2.319
0.182,-0.022,0.958,5.188,0.061,-1.099
0.177,-0.014,0.959,5.920,-0.244,-0.061
0.171,-0.012,0.967,6.348,0.061,0.061
0.169,-0.015,0.975,6.531,1.038,-0.488

0.326,-1.741,-0.513,791.199,-14.832,-123.718
0.285,-1.944,0.087,746.094,-75.745,-108.887
0.296,-2.007,0.691,666.443,-116.821,-75.928
0.348,-1.922,1.180,578.979,-130.249,-38.330
0.248,-1.911,1.564,485.229,-123.291,-8.850
0.102,-1.668,1.727,388.428,-96.313,14.893
-0.081,-1.453,1.582,286.621,-69.458,13.733
-0.271,-1.312,1.263,180.542,-60.059,-11.841
-0.344,-1.224,0.913,91.919,-65.735,-53.833
-0.330,-1.252,0.650,27.649,-78.430,-101.563
-0.203,-1.310,0.499,-10.193,-90.820,-143.188
-0.059,-1.428,0.481,-27.283,-94.604,-167.358
0.113,-1.515,0.552,-31.128,-87.708,-165.222
0.245,-1.542,0.627,-30.701,-73.792,-138.733
0.245,-1.512,0.612,-24.963,-50.354,-100.403
0.206,-1.410,0.508,-16.663,-21.179,-57.922
0.134,-1.281,0.343,-9.460,2.380,-22.888
0.061,-1.139,0.185,-4.883,17.578,-4.395
0.027,-1.032,0.090,-5.798,19.348,-1.587
0.013,-0.969,0.077,-13.367,9.888,-9.827
0.016,-0.933,0.113,-23.865,-3.540,-25.208
0.047,-0.920,0.167,-35.522,-14.038,-41.260
0.069,-0.935,0.212,-46.204,-21.423,-54.077
0.079,-0.954,0.227,-53.772,-24.109,-60.547
0.087,-0.967,0.218,-57.251,-23.071,-60.974
0.088,-0.993,0.218,-57.922,-20.813,-57.068
0.107,-1.021,0.256,-58.777,-19.958,-49.133
0.112,-1.044,0.330,-62.927,-21.851,-37.231
0.087,-1.059,0.402,-69.458,-22.400,-22.339
0.055,-1.062,0.445,-75.378,-15.381,-8.423
0.013,-1.070,0.448,-79.712,-4.211,2.441
-0.015,-1.051,0.418,-83.740,6.409,10.437
-0.032,-1.038,0.398,-88.379,13.550,14.771
-0.023,-1.038,0.391,-94.360,16.724,16.052
0.016,-1.050,0.422,-102.356,15.198,15.686
0.049,-1.057,0.490,-115.967,9.521,16.235
0.073,-1.069,0.580,-133.118,4.028,19.409
0.067,-1.078,0.644,-152.649,4.517,24.597
0.062,-1.073,0.655,-170.593,13.367,31.860
0.066,-1.060,0.630,-185.364,26.062,38.391
0.071,-1.052,0.595,-199.097,39.001,44.006
0.092,-1.055,0.582,-209.534,48.950,49.255
0.112,-1.045,0.608,-217.529,54.016,54.016
0.085,-1.014,0.641,-222.595,56.641,60.669
0.047,-0.967,0.643,-222.839,61.768,67.139
0.017,-0.911,0.632,-219.482,72.327,70.129
-0.027,-0.882,0.580,-211.243,85.144,68.665
-0.037,-0.812,0.503,-196.838,94.910,65.369
-0.037,-0.753,0.459,-183.044,98.877,61.768
-0.003,-0.735,0.500,-172.119,94.055,57.495
0.054,-0.678,0.599,-171.021,80.200,54.077
0.025,-0.595,0.714,-184.143,57.434,52.490
0.016,-0.530,0.830,-209.229,34.973,48.889
0.007,-0.526,0.878,-237.610,19.409,39.490
0.018,-0.557,0.818,-257.446,12.512,27.405
0.048,-0.541,0.727,-264.893,10.010,16.052
0.091,-0.517,0.641,-261.169,7.080,7.935
0.112,-0.500,0.597,-246.216,1.892,5.554
0.140,-0.480,0.607,-222.168,-1.465,7.507
0.142,-0.420,0.671,-192.749,-0.488,11.414
0.103,-0.338,0.763,-164.551,4.333,15.625
0.092,-0.289,0.855,-145.996,12.329,16.724
0.086,-0.232,0.918,-138.977,20.996,15.869
0.075,-0.189,0.930,-140.015,26.184,14.282
0.078,-0.160,0.902,-144.165,27.832,11.963
0.073,-0.153,0.861,-147.095,25.635,9.155
0.068,-0.140,0.802,-142.151,19.226,7.629
0.070,-0.094,0.770,-127.441,10.071,4.272
0.090,-0.075,0.788,-107.300,0.977,-1.465
0.135,-0.073,0.862,-87.402,-3.174,-4.822
0.150,-0.063,0.940,-72.266,1.343,-4.700
0.158,-0.060,0.991,-63.416,13.245,-2.380
0.165,-0.051,0.990,-60.730,26.672,0.244
0.175,-0.040,0.947,-61.401,37.537,1.770
0.182,-0.032,0.893,-62.805,42.114,3.113
0.185,-0.026,0.848,-61.768,39.246,3.601
0.180,-0.015,0.821,-56.458,30.334,2.747
0.181,0.005,0.816,-47.058,17.822,0.000
0.189,0.017,0.819,-36.499,6.165,-3.723
0.193,0.024,0.840,-25.024,-2.197,-6.165
0.191,0.027,0.878,-13.245,-5.798,-7.874
0.199,0.019,0.914,-2.502,-3.906,-10.254
0.215,-0.007,0.947,5.798,3.113,-11.719
0.244,-0.036,0.974,11.780,13.123,-10.742
0.257,-0.039,0.978,13.672,22.461,-7.080
0.255,-0.042,0.970,11.536,28.503,-3.601
0.245,-0.043,0.956,8.728,30.273,-1.038
0.249,-0.040,0.936,7.080,27.588,-0.366
0.259,-0.045,0.940,3.967,19.409,-0.732
0.252,-0.044,0.970,-0.488,6.958,-0.671
0.249,-0.041,0.996,-4.395,-5.005,-0.244
0.242,-0.038,1.004,-6.592,-12.329,-0.916
0.237,-0.034,1.000,-6.714,-13.611,-1.526
0.235,-0.017,0.990,-4.150,-10.803,-1.282
0.227,0.000,0.982,1.099,-6.531,-0.916
0.225,0.003,0.978,6.348,-1.404,-1.648
0.232,-0.002,0.977,10.010,4.517,-2.625
0.239,-0.006,0.973,12.024,8.972,-2.686
0.241,-0.012,0.975,12.573,11.353,-1.831
0.246,-0.016,0.981,11.230,12.207,-1.099
0.244,-0.023,0.982,8.240,11.536,-0.854
0.250,-0.030,0.974,5.127,9.888,-1.099
0.259,-0.033,0.966,2.197,6.592,-2.319
0.267,-0.035,0.954,-0.732,2.014,-3.235
0.269,-0.036,0.943,-2.991,-1.953,-3.174
0.264,-0.028,0.929,-2.686,-3.357,-2.563
0.257,-0.017,0.911,-0.610,-2.563,-2.014
0.254,-0.005,0.893,3.357,-0.549,-1.587
0.241,-0.005,0.893,7.874,1.038,-1.343
0.244,-0.019,0.911,11.353,2.136,-1.709
0.243,-0.024,0.928,13.184,3.357,-0.977
0.249,-0.038,0.952,13.550,4.578,0.549
0.245,-0.041,0.972,11.353,5.798,1.770
0.243,-0.041,0.982,8.179,7.446,2.563
0.241,-0.046,0.973,4.761,8.484,2.075
0.251,-0.048,0.952,2.197,7.507,1.160
0.259,-0.050,0.936,0.977,4.272,0.488
0.268,-0.054,0.942,0.061,-0.366,0.244
0.266,-0.052,0.949,-0.793,-3.418,0.793

0.391,-1.796,-0.244,723.694,-73.486,-194.031
0.400,-1.962,0.450,649.109,-144.409,-176.392
0.425,-1.772,1.054,548.218,-197.327,-117.981
0.407,-1.589,1.582,461.853,-199.341,-53.772
0.346,-1.468,1.756,384.827,-148.682,-9.949
0.208,-1.343,1.543,315.247,-81.970,22.766
0.058,-1.228,1.198,247.803,-33.630,36.743
-0.129,-1.134,0.813,187.500,-16.479,30.579
-0.193,-1.059,0.545,136.108,-17.822,7.141
-0.203,-1.063,0.391,90.149,-29.236,-26.489
-0.155,-1.108,0.348,54.749,-46.753,-62.500
-0.070,-1.171,0.392,29.968,-62.378,-88.562
0.014,-1.219,0.456,15.320,-67.627,-100.952
0.060,-1.278,0.487,9.277,-60.730,-100.464
0.071,-1.317,0.492,6.958,-48.096,-89.783
0.055,-1.338,0.487,7.019,-35.278,-74.280
0.052,-1.343,0.470,5.676,-24.414,-58.533
0.041,-1.327,0.449,2.563,-16.907,-44.678
0.035,-1.289,0.426,-1.892,-10.925,-32.959
0.030,-1.245,0.404,-7.996,-5.493,-24.719
0.039,-1.214,0.391,-17.029,-2.197,-20.447
0.039,-1.183,0.403,-30.457,-3.418,-19.348
0.045,-1.168,0.433,-46.997,-6.775,-20.020
0.048,-1.168,0.459,-65.247,-9.338,-21.729
0.052,-1.176,0.484,-83.862,-10.559,-22.461
0.068,-1.188,0.491,-100.708,-9.705,-21.423
0.089,-1.196,0.486,-116.882,-7.690,-18.555
0.109,-1.203,0.494,-131.592,-5.859,-14.221
0.123,-1.209,0.499,-143.555,-2.686,-8.667
0.130,-1.217,0.502,-153.320,1.892,-2.258
0.134,-1.220,0.521,-161.621,5.676,6.348
0.138,-1.225,0.560,-168.945,9.155,16.541
0.135,-1.214,0.608,-177.368,13.672,26.367
0.118,-1.190,0.643,-186.279,19.470,36.133
0.110,-1.141,0.647,-194.214,27.588,44.678
0.093,-1.084,0.649,-199.951,38.330,50.293
0.086,-1.030,0.654,-204.102,50.598,54.932
0.099,-0.995,0.680,-210.388,61.462,59.753
0.095,-0.974,0.715,-220.032,68.665,64.575
0.084,-0.938,0.740,-232.117,74.158,70.251
0.045,-0.902,0.751,-245.056,80.750,73.975
0.014,-0.875,0.724,-258.240,88.745,74.646
-0.004,-0.851,0.671,-268.250,93.872,71.655
0.023,-0.816,0.625,-273.254,91.003,63.843
0.045,-0.749,0.613,-280.701,78.735,55.908
0.045,-0.702,0.635,-294.434,61.035,49.744
0.048,-0.639,0.623,-308.716,43.640,43.701
0.067,-0.573,0.606,-317.627,30.273,36.316
0.102,-0.556,0.615,-321.106,20.874,29.968
0.146,-0.569,0.625,-315.552,16.541,27.710
0.155,-0.503,0.634,-299.866,18.127,28.809
0.143,-0.430,0.591,-280.151,26.550,33.386
0.150,-0.372,0.576,-258.484,37.415,36.438
0.155,-0.292,0.565,-232.605,47.913,38.696
0.138,-0.221,0.547,-207.336,55.176,41.748
0.140,-0.184,0.556,-183.472,57.251,42.542
0.195,-0.134,0.610,-165.222,52.673,40.710
0.171,-0.109,0.625,-155.090,47.363,40.466
0.167,-0.072,0.584,-143.555,40.710,38.757
0.195,-0.000,0.549,-128.296,30.579,33.081
0.219,0.025,0.551,-112.915,18.494,25.513
0.231,0.036,0.570,-95.947,8.606,18.860
0.229,0.047,0.617,-76.599,2.563,13.062
0.243,0.061,0.671,-57.251,1.770,8.118
0.254,0.062,0.728,-39.978,6.287,3.906
0.249,0.063,0.767,-25.879,14.038,2.197
0.243,0.070,0.787,-13.977,22.095,2.563
0.249,0.063,0.796,-4.822,28.442,2.808
0.256,0.057,0.798,1.709,29.602,2.625
0.264,0.049,0.808,5.981,23.987,3.052
0.264,0.044,0.835,8.606,14.465,3.601
0.255,0.053,0.874,10.010,3.723,3.113
0.256,0.052,0.910,10.010,-5.310,0.793
0.255,0.042,0.943,10.681,-10.376,-1.831
0.261,0.042,0.959,13.245,-11.963,-3.662
0.268,0.041,0.967,16.724,-10.498,-5.066
0.269,0.037,0.978,20.020,-7.812,-5.615
0.270,0.029,0.987,22.705,-5.493,-5.493
0.274,0.005,1.008,23.926,-3.662,-5.310
0.278,-0.003,1.042,22.766,-1.770,-4.089
0.283,-0.003,1.051,18.738,0.977,-2.136
0.286,0.001,1.034,13.611,4.333,-0.854
0.283,0.001,1.014,9.827,6.104,-0.061
0.277,0.000,1.006,7.080,5.249,-0.427
0.287,0.008,1.000,5.066,1.709,-1.953
0.300,0.002,0.990,2.563,-2.136,-4.028
0.307,0.004,0.986,0.183,-4.761,-4.761
0.306,-0.003,0.987,-0.122,-5.432,-4.700
0.304,-0.013,0.979,1.648,-3.357,-4.639
0.309,-0.005,0.964,4.944,-0.061,-4.822
0.315,-0.008,0.955,8.118,3.601,-4.517
0.315,0.000,0.952,10.559,6.226,-4.578
0.326,-0.003,0.954,11.963,7.874,-4.089
0.322,-0.021,0.960,9.888,9.033,-2.075
0.325,-0.013,0.947,8.484,9.766,0.061
0.323,-0.010,0.938,6.531,9.216,0.916
0.323,-0.007,0.929,4.456,7.629,1.282
0.325,-0.007,0.932,3.357,5.188,0.977
0.325,-0.014,0.944,1.587,3.357,1.404
0.317,-0.016,0.944,0.244,2.502,1.953
0.310,-0.009,0.922,0.366,2.930,2.197
0.305,0.005,0.906,2.197,3.357,1.892
0.302,0.006,0.903,4.578,2.808,0.671
0.301,0.007,0.911,6.592,2.014,-0.244
0.298,0.001,0.915,6.775,1.831,0.122
0.297,-0.001,0.917,6.104,1.709,0.061
0.304,-0.005,0.917,6.287,1.404,-0.366
0.312,-0.010,0.927,6.226,0.977,-1.038
0.312,-0.016,0.935,5.371,0.366,-0.671
0.308,-0.018,0.943,4.333,0.122,0.122
0.309,-0.019,0.944,3.418,0.183,-0.305
0.321,-0.029,0.948,2.380,0.122,-0.793
0.324,-0.030,0.953,1.099,0.000,0.427
0.314,-0.020,0.947,-0.183,0.549,2.380
0.305,-0.009,0.929,-0.427,1.770,3.296
0.301,-0.001,0.919,0.488,2.380,2.991
0.298,-0.002,0.916,1.404,2.441,2.747
0.291,-0.004,0.917,2.808,2.136,2.319
0.292,-0.004,0.914,4.639,1.892,2.014

0.308,-1.457,1.660,298.401,-250.244,-160.522
0.380,-1.507,1.753,232.666,-182.739,-134.583
0.339,-1.607,1.565,173.706,-109.253,-102.234
0.214,-1.638,1.257,127.258,-56.580,-68.359
0.118,-1.635,0.968,91.431,-29.480,-40.710
0.036,-1.618,0.777,66.650,-24.414,-23.499
0.012,-1.571,0.683,53.955,-25.269,-13.794
0.016,-1.548,0.676,52.673,-20.081,-7.874
0.084,-1.498,0.692,56.335,-8.240,0.916
0.132,-1.419,0.727,59.326,6.165,16.235
0.118,-1.282,0.780,53.894,21.606,33.325
0.071,-1.111,0.767,33.997,33.081,44.434
-0.018,-0.984,0.677,6.409,37.537,38.391
-0.053,-0.889,0.528,-25.391,31.250,21.667
-0.066,-0.853,0.391,-54.443,17.029,0.183
-0.021,-0.840,0.297,-72.632,1.221,-23.071
0.044,-0.879,0.255,-81.665,-11.536,-40.833
0.110,-0.911,0.262,-80.994,-20.203,-47.791
0.157,-0.943,0.298,-71.350,-21.545,-44.189
0.186,-0.967,0.347,-57.739,-16.113,-32.410
0.175,-0.969,0.391,-44.556,-8.667,-14.954
0.142,-0.963,0.420,-34.424,-0.305,1.709
0.114,-0.958,0.438,-27.039,7.996,15.564
0.086,-0.949,0.451,-24.597,12.817,24.475
0.068,-0.929,0.464,-26.917,13.489,29.053
0.055,-0.925,0.494,-32.043,12.756,29.602
0.049,-0.930,0.519,-38.879,13.550,27.588
0.053,-0.940,0.535,-47.058,14.893,25.513
0.057,-0.947,0.537,-54.016,16.724,24.292
0.067,-0.959,0.540,-59.692,19.836,24.109
0.073,-0.969,0.540,-65.247,21.912,25.940
0.072,-0.961,0.547,-70.496,22.766,28.687
0.071,-0.949,0.544,-74.951,23.682,31.677
0.092,-0.938,0.559,-80.261,24.658,33.569
0.098,-0.926,0.585,-87.891,23.499,35.400
0.107,-0.911,0.617,-97.717,21.729,37.170
0.129,-0.893,0.649,-109.070,20.630,36.865
0.143,-0.877,0.686,-122.986,19.958,35.583
0.155,-0.869,0.708,-138.916,20.813,34.424
0.161,-0.848,0.702,-153.076,23.193,33.569
0.184,-0.841,0.685,-165.100,25.269,32.349
0.210,-0.842,0.678,-177.734,26.123,32.288
0.210,-0.838,0.677,-189.087,25.635,34.912
0.193,-0.820,0.669,-194.885,26.306,38.452
0.164,-0.788,0.658,-194.336,29.175,40.039
0.173,-0.760,0.642,-190.125,33.447,39.795
0.203,-0.726,0.671,-184.998,35.095,39.124
0.204,-0.693,0.736,-183.411,32.471,41.321
0.176,-0.635,0.799,-185.791,29.053,44.739
0.149,-0.585,0.840,-191.101,28.503,43.518
0.153,-0.545,0.840,-198.730,29.053,36.316
0.142,-0.526,0.808,-205.139,25.818,26.062
0.161,-0.521,0.770,-209.473,16.907,18.494
0.204,-0.519,0.772,-211.975,2.808,15.686
0.215,-0.461,0.756,-211.914,-11.108,17.090
0.190,-0.442,0.761,-208.679,-22.095,17.517
0.194,-0.370,0.737,-195.068,-26.855,15.320
0.196,-0.305,0.739,-176.086,-25.330,13.855
0.199,-0.264,0.761,-156.921,-21.240,13.062
0.204,-0.244,0.798,-136.475,-12.939,12.939
0.220,-0.247,0.851,-118.164,-1.282,12.634
0.226,-0.230,0.891,-104.370,11.902,16.235
0.205,-0.206,0.894,-96.436,24.109,21.973
0.180,-0.165,0.855,-89.844,32.288,24.658
0.168,-0.143,0.804,-82.642,34.668,23.621
0.186,-0.113,0.761,-75.073,28.931,19.653
0.198,-0.100,0.759,-67.322,16.907,14.709
0.207,-0.089,0.771,-59.448,3.357,10.010
0.213,-0.086,0.801,-51.270,-7.202,4.883
0.229,-0.096,0.837,-44.067,-13.489,0.854
0.241,-0.102,0.865,-37.354,-15.381,-0.549
0.238,-0.100,0.886,-30.396,-12.939,0.488
0.234,-0.105,0.915,-24.048,-7.385,2.319
0.231,-0.110,0.928,-18.127,0.122,4.517
0.228,-0.103,0.923,-12.634,9.705,7.080
0.220,-0.099,0.914,-7.263,16.907,8.972
0.205,-0.094,0.904,-4.150,19.226,9.705
0.205,-0.084,0.887,-2.808,15.991,8.301
0.215,-0.081,0.880,-2.502,8.606,6.104
0.219,-0.083,0.902,-1.892,0.061,4.272
0.219,-0.077,0.933,-1.892,-6.226,3.113
0.218,-0.087,0.953,-2.075,-8.667,1.465
0.223,-0.092,0.960,-1.099,-7.874,0.305
0.227,-0.096,0.965,0.610,-5.737,0.366
0.223,-0.086,0.972,2.563,-2.747,2.014
0.220,-0.085,0.983,3.784,0.549,3.601
0.223,-0.087,0.985,3.418,3.906,3.906
0.223,-0.088,0.978,3.235,5.737,3.723
0.225,-0.082,0.966,2.991,6.775,4.333
0.216,-0.071,0.957,2.930,6.836,4.517
0.211,-0.062,0.946,3.296,5.615,3.296
0.212,-0.057,0.933,3.357,3.540,1.038
0.213,-0.057,0.928,3.296,0.549,-1.038
0.227,-0.072,0.936,2.930,-2.014,-2.319
0.240,-0.088,0.951,2.991,-3.296,-2.625
0.246,-0.097,0.962,2.686,-2.502,-1.099
0.245,-0.098,0.957,2.686,-0.061,0.854
0.245,-0.101,0.945,3.540,2.747,2.258
0.247,-0.097,0.936,4.211,4.456,3.357
0.246,-0.094,0.937,5.798,5.249,4.700
0.232,-0.092,0.942,6.348,5.371,5.005
0.226,-0.086,0.947,7.080,4.211,3.845
0.228,-0.082,0.949,7.019,3.052,2.258
0.229,-0.079,0.951,6.165,1.831,0.977
0.226,-0.076,0.952,5.066,0.854,0.427
0.226,-0.091,0.965,4.272,0.122,-0.061
0.222,-0.095,0.970,3.784,-0.366,-0.183
0.220,-0.087,0.961,3.174,0.977,0.305
0.221,-0.081,0.947,2.869,2.380,0.122
0.225,-0.087,0.942,4.028,2.563,-0.977
0.237,-0.098,0.948,4.761,2.380,-1.709
0.242,-0.110,0.953,3.906,1.099,-1.160
0.242,-0.113,0.945,3.113,-0.061,-0.305
0.240,-0.105,0.937,3.235,-0.854,-0.244
0.242,-0.106,0.942,3.479,-1.587,-0.549
0.242,-0.106,0.949,3.479,-2.258,-0.549
0.238,-0.107,0.954,3.113,-2.747,-0.122
0.233,-0.102,0.946,2.625,-2.380,0.549
0.229,-0.092,0.939,2.502,-1.404,1.038

0.028,-1.834,-0.656,792.175,-67.261,-212.402
0.456,-2.064,0.012,762.390,-88.867,-204.651
0.739,-2.114,0.805,683.289,-123.352,-154.114
0.747,-1.989,1.581,580.444,-151.184,-67.444
0.616,-1.769,2.074,481.445,-125.610,19.958
0.390,-1.635,1.984,391.785,-40.405,72.632
0.147,-1.506,1.433,305.420,42.786,84.656
-0.061,-1.400,0.801,209.534,61.951,65.796
-0.212,-1.314,0.450,115.784,18.311,21.973
-0.234,-1.316,0.390,36.133,-42.725,-35.767
-0.137,-1.405,0.501,-15.320,-82.458,-91.675
0.021,-1.514,0.626,-40.527,-91.919,-126.404
0.149,-1.590,0.742,-50.415,-85.571,-129.517
0.231,-1.598,0.767,-51.819,-65.247,-107.178
0.248,-1.565,0.698,-45.532,-33.020,-68.604
0.222,-1.491,0.559,-36.072,-1.343,-25.818
0.153,-1.394,0.420,-26.611,22.217,11.780
0.084,-1.268,0.305,-17.639,35.706,37.903
0.048,-1.140,0.235,-12.024,39.917,48.523
0.033,-1.048,0.208,-12.268,36.621,46.448
0.047,-0.972,0.210,-16.968,28.198,36.255
0.082,-0.917,0.224,-25.574,19.043,21.667
0.124,-0.901,0.236,-36.133,11.658,8.057
0.152,-0.887,0.230,-45.715,6.775,-0.977
0.170,-0.881,0.212,-54.443,3.906,-5.615
0.174,-0.882,0.198,-61.584,1.343,-7.568
0.168,-0.894,0.181,-66.040,-1.099,-7.935
0.154,-0.907,0.166,-67.688,-2.319,-7.080
0.144,-0.929,0.168,-66.345,-2.930,-5.615
0.145,-0.958,0.199,-65.002,-4.272,-4.028
0.141,-0.983,0.248,-65.552,-7.446,-0.671
0.130,-1.004,0.305,-67.322,-9.216,2.991
0.118,-1.010,0.346,-68.726,-7.812,5.493
0.116,-1.020,0.378,-71.533,-5.066,7.935
0.118,-1.025,0.402,-76.721,-2.747,10.742
0.123,-1.023,0.419,-82.458,-1.282,13.000
0.130,-1.028,0.446,-89.722,-0.549,13.672
0.145,-1.024,0.483,-97.839,-1.953,14.404
0.154,-1.023,0.531,-108.276,-3.601,16.052
0.162,-1.024,0.572,-120.972,-3.967,18.494
0.167,-1.026,0.613,-134.827,-3.174,21.545
0.152,-1.017,0.636,-148.315,-2.563,26.245
0.143,-1.000,0.655,-161.621,-0.671,31.555
0.131,-0.989,0.677,-173.279,2.686,37.292
0.123,-0.970,0.713,-183.899,6.409,43.152
0.114,-0.951,0.755,-194.702,11.108,47.974
0.104,-0.928,0.802,-205.811,17.151,52.002
0.076,-0.900,0.822,-215.759,22.339,55.298
0.055,-0.848,0.809,-222.900,28.076,57.739
0.031,-0.785,0.776,-227.722,34.790,57.739
0.035,-0.735,0.746,-232.361,40.222,53.894
0.037,-0.702,0.721,-239.136,41.260,47.363
0.046,-0.671,0.690,-245.850,34.607,39.551
0.071,-0.635,0.680,-251.892,21.484,31.372
0.076,-0.610,0.683,-257.446,5.310,22.949
0.075,-0.591,0.688,-257.568,-8.545,14.221
0.116,-0.544,0.672,-250.061,-19.592,5.310
0.143,-0.516,0.702,-240.662,-30.762,-2.380
0.151,-0.465,0.726,-226.990,-38.696,-4.822
0.156,-0.412,0.743,-209.106,-37.720,-2.502
0.164,-0.369,0.774,-186.890,-27.344,1.038
0.157,-0.323,0.800,-162.048,-9.949,6.897
0.145,-0.266,0.835,-137.329,10.925,14.526
0.117,-0.226,0.841,-116.394,32.654,20.020
0.104,-0.192,0.810,-98.267,52.368,22.461
0.117,-0.159,0.773,-82.153,64.453,22.461
0.121,-0.138,0.754,-70.740,65.369,20.325
0.124,-0.133,0.746,-63.904,56.641,16.541
0.139,-0.125,0.744,-60.120,41.687,11.108
0.162,-0.125,0.752,-57.434,22.766,4.700
0.180,-0.131,0.776,-55.359,4.395,-1.404
0.185,-0.124,0.800,-51.453,-9.216,-5.371
0.198,-0.124,0.831,-46.326,-17.578,-7.812
0.208,-0.120,0.856,-39.734,-20.081,-8.362
0.204,-0.122,0.881,-33.447,-16.663,-7.019
0.201,-0.113,0.906,-26.733,-10.681,-4.761
0.197,-0.106,0.918,-20.386,-2.686,-2.136
0.192,-0.107,0.909,-15.564,6.775,-0.183
0.186,-0.112,0.883,-10.437,13.184,0.854
0.180,-0.112,0.847,-4.333,15.259,0.977
0.189,-0.111,0.829,2.563,11.963,-0.977
0.203,-0.114,0.841,8.789,3.845,-4.822
0.212,-0.122,0.861,12.939,-4.944,-7.935
0.222,-0.141,0.890,15.015,-11.475,-10.315
0.224,-0.151,0.929,15.564,-15.198,-11.047
0.230,-0.163,0.975,14.832,-15.930,-10.925
0.230,-0.167,1.000,12.329,-13.184,-9.521
0.219,-0.166,1.001,9.338,-8.545,-6.653
0.202,-0.152,0.997,7.385,-3.357,-4.456
0.190,-0.146,0.989,6.714,0.732,-3.296
0.186,-0.145,0.977,6.653,3.174,-3.235
0.189,-0.148,0.964,7.568,3.601,-3.662
0.195,-0.149,0.944,9.094,2.991,-4.028
0.208,-0.151,0.932,10.803,1.953,-4.395
0.216,-0.153,0.921,12.573,-0.305,-5.310
0.222,-0.170,0.925,13.428,-1.953,-5.066
0.234,-0.167,0.939,14.343,-3.418,-5.066
0.230,-0.175,0.955,14.160,-3.357,-4.150
0.235,-0.179,0.965,12.085,-1.343,-2.991
0.226,-0.183,0.961,9.583,0.183,-1.770
0.217,-0.168,0.957,7.935,1.648,0.183
0.214,-0.162,0.957,6.592,2.747,0.244
0.213,-0.163,0.953,5.615,2.869,-0.549
0.210,-0.164,0.950,5.066,3.113,-0.732
0.209,-0.164,0.954,5.249,2.930,-0.427
0.205,-0.163,0.952,5.127,2.441,-0.427
0.208,-0.162,0.944,4.883,2.075,-0.854
0.221,-0.169,0.942,5.615,1.587,-1.587
0.217,-0.182,0.943,6.409,0.732,-1.160
0.218,-0.174,0.949,6.897,0.610,0.061
0.216,-0.175,0.951,6.653,1.221,0.488
0.218,-0.180,0.951,7.874,2.747,-0.061
0.220,-0.184,0.955,8.667,4.639,0.549
0.219,-0.185,0.958,9.460,5.737,1.404
0.216,-0.182,0.962,10.193,7.080,2.136
0.212,-0.183,0.971,10.620,7.385,2.014
0.211,-0.170,0.968,10.071,7.935,2.136
0.203,-0.174,0.959,6.348,6.653,2.686
0.202,-0.165,0.942,3.784,4.028,1.892

0.414,-1.689,0.914,520.935,-49.194,-28.687
0.431,-1.614,1.242,451.416,-54.077,-12.329
0.388,-1.543,1.421,373.291,-45.410,0.732
0.312,-1.477,1.415,293.396,-25.818,12.817
0.179,-1.360,1.190,216.064,-7.568,18.738
0.003,-1.271,0.905,140.198,-7.080,11.963
-0.109,-1.215,0.613,77.515,-18.127,-5.615
-0.167,-1.187,0.391,32.532,-32.104,-32.898
-0.139,-1.203,0.306,3.296,-44.800,-61.646
-0.073,-1.237,0.348,-11.169,-50.964,-81.726
0.018,-1.284,0.451,-14.221,-49.072,-85.205
0.089,-1.290,0.530,-9.644,-36.987,-73.242
0.127,-1.298,0.543,-2.930,-18.433,-51.514
0.130,-1.282,0.508,1.831,0.061,-24.170
0.084,-1.234,0.434,3.662,14.771,0.854
0.021,-1.165,0.369,2.136,21.790,18.677
-0.020,-1.088,0.310,-3.174,22.766,26.672
-0.044,-1.036,0.268,-11.658,20.142,24.841
-0.040,-0.998,0.238,-21.973,15.015,16.174
-0.014,-0.973,0.221,-33.142,7.812,4.639
0.005,-0.954,0.204,-42.603,1.160,-7.141
0.040,-0.939,0.187,-48.340,-2.502,-17.578
0.082,-0.948,0.183,-51.636,-4.333,-25.452
0.121,-0.974,0.196,-54.688,-6.897,-28.931
0.147,-0.996,0.231,-57.800,-11.169,-26.855
0.160,-1.007,0.275,-60.120,-13.794,-20.874
0.164,-1.029,0.312,-62.500,-11.658,-13.000
0.180,-1.049,0.354,-66.895,-8.911,-4.333
0.174,-1.066,0.411,-75.867,-9.521,5.737
0.158,-1.075,0.472,-87.769,-9.644,16.052
0.117,-1.084,0.510,-101.135,-7.446,25.269
0.069,-1.101,0.521,-115.784,-3.174,32.043
0.041,-1.086,0.501,-129.517,-0.488,36.560
0.005,-1.066,0.468,-140.808,-1.831,36.743
-0.016,-1.042,0.424,-149.353,-4.028,33.386
0.009,-1.018,0.408,-153.870,-5.920,28.015
0.071,-1.008,0.440,-156.372,-9.277,22.888
0.129,-0.998,0.517,-161.377,-13.733,21.301
0.175,-0.985,0.621,-169.373,-15.198,25.208
0.214,-0.944,0.739,-180.664,-9.644,31.860
0.224,-0.944,0.842,-198.975,1.404,40.466
0.158,-0.970,0.866,-218.994,14.893,47.852
0.104,-0.956,0.769,-231.384,27.588,53.711
0.068,-0.906,0.632,-237.000,37.537,53.772
0.022,-0.872,0.510,-239.807,38.330,47.119
0.027,-0.810,0.417,-234.497,29.358,39.551
0.068,-0.733,0.444,-225.037,13.184,30.212
0.079,-0.656,0.550,-217.285,-5.920,23.315
0.057,-0.597,0.695,-211.365,-19.409,18.921
0.048,-0.545,0.813,-207.764,-20.874,14.832
0.028,-0.493,0.874,-206.299,-10.986,11.414
0.010,-0.461,0.883,-208.374,2.197,7.935
0.009,-0.469,0.875,-213.196,12.390,3.479
0.037,-0.485,0.801,-219.543,14.221,0.854
0.065,-0.505,0.755,-223.816,6.531,-0.061
0.055,-0.463,0.708,-221.130,-7.019,0.549
0.052,-0.447,0.657,-211.975,-18.982,-0.122
0.107,-0.384,0.620,-192.810,-28.687,-3.418
0.156,-0.332,0.647,-168.823,-36.499,-6.042
0.152,-0.302,0.700,-145.508,-40.894,-7.568
0.171,-0.278,0.800,-124.756,-39.001,-5.310
0.142,-0.245,0.898,-110.474,-31.128,-1.099
0.107,-0.218,0.953,-101.563,-16.052,3.784
0.073,-0.202,0.942,-94.788,1.282,7.202
0.062,-0.172,0.892,-86.853,15.625,8.484
0.056,-0.159,0.839,-77.026,20.813,8.179
0.050,-0.136,0.804,-65.857,17.639,6.897
0.058,-0.110,0.801,-54.077,8.728,5.188
0.065,-0.087,0.840,-44.006,-1.831,2.380
0.068,-0.090,0.892,-36.865,-8.850,-0.488
0.066,-0.086,0.930,-32.837,-11.536,-1.648
0.058,-0.086,0.940,-29.602,-10.315,-1.770
0.062,-0.081,0.930,-25.696,-6.592,-1.831
0.073,-0.087,0.932,-21.240,-3.601,-1.587
0.083,-0.094,0.944,-17.517,-0.305,-0.244
0.076,-0.094,0.952,-14.709,3.235,2.563
0.067,-0.094,0.933,-11.719,7.202,4.822
0.067,-0.080,0.907,-5.676,10.498,5.615
0.063,-0.064,0.896,2.075,11.047,4.272
0.058,-0.066,0.905,7.507,9.094,2.136
0.062,-0.072,0.922,10.803,5.493,-0.854
0.068,-0.087,0.941,12.329,1.404,-3.845
0.074,-0.099,0.957,11.963,-2.136,-5.920
0.091,-0.118,0.979,11.230,-4.333,-7.324
0.105,-0.132,0.999,10.010,-4.517,-6.958
0.107,-0.137,1.003,8.484,-2.686,-4.822
0.103,-0.132,0.998,8.240,0.732,-2.319
0.103,-0.120,0.978,9.338,5.005,-0.488
0.104,-0.117,0.966,11.108,7.874,0.183
0.106,-0.124,0.963,13.000,9.033,0.122
0.109,-0.122,0.962,14.648,8.728,0.061
0.115,-0.125,0.960,15.198,8.423,-0.244
0.120,-0.131,0.955,14.038,7.324,-0.427
0.121,-0.142,0.959,11.169,4.700,-0.061
0.112,-0.138,0.959,7.202,0.671,0.977
0.108,-0.131,0.960,3.845,-3.967,0.671
0.111,-0.133,0.968,1.648,-6.470,-0.610
0.112,-0.139,0.980,0.977,-6.714,-0.793
0.105,-0.138,0.989,1.770,-5.432,0.000
0.101,-0.128,0.987,3.357,-2.747,0.916
0.100,-0.127,0.986,5.371,0.122,1.465
0.098,-0.114,0.982,5.554,2.197,2.197
0.095,-0.114,0.975,5.127,3.601,2.930
0.097,-0.117,0.969,5.005,3.784,2.136
0.094,-0.122,0.959,5.066,3.784,1.709
0.103,-0.120,0.951,6.531,2.869,1.770
0.104,-0.122,0.958,7.812,1.404,1.709
0.097,-0.124,0.965,7.996,0.488,2.014
0.092,-0.126,0.966,8.179,0.793,2.075
0.092,-0.126,0.960,8.972,1.526,2.380
0.090,-0.128,0.951,10.559,2.136,2.686
0.092,-0.124,0.952,12.512,2.502,2.563
0.095,-0.128,0.952,14.282,3.113,2.258
0.098,-0.134,0.948,15.076,3.967,2.014
0.096,-0.136,0.946,15.442,3.906,1.587
0.093,-0.133,0.943,15.015,2.380,1.099
0.089,-0.137,0.946,14.160,-0.183,0.366
0.085,-0.142,0.959,13.062,-2.991,-0.427
0.081,-0.146,0.976,12.573,-5.432,-1.160

0.355,-1.690,1.308,492.371,-78.369,-41.260
0.275,-1.643,1.465,414.368,-56.702,-5.798
0.160,-1.541,1.313,337.891,-20.752,14.832
-0.012,-1.462,0.984,258.606,2.258,20.447
-0.188,-1.355,0.636,181.763,-1.648,9.094
-0.311,-1.294,0.418,117.249,-23.621,-18.433
-0.331,-1.352,0.350,64.819,-49.072,-57.495
-0.250,-1.442,0.454,31.494,-66.528,-93.323
-0.141,-1.515,0.594,9.644,-74.829,-109.497
-0.050,-1.562,0.665,0.061,-67.566,-106.140
0.012,-1.570,0.663,0.061,-47.546,-86.914
0.026,-1.533,0.598,4.883,-24.170,-57.068
-0.015,-1.469,0.498,11.047,-3.540,-22.278
-0.082,-1.378,0.407,17.578,12.878,7.629
-0.123,-1.278,0.366,21.362,21.667,28.442
-0.167,-1.187,0.353,18.433,23.254,38.574
-0.181,-1.108,0.355,9.827,22.278,38.513
-0.166,-1.057,0.363,-3.235,19.531,30.823
-0.143,-1.036,0.367,-20.142,13.733,19.714
-0.124,-1.025,0.347,-36.377,8.850,9.094
-0.109,-1.001,0.299,-47.974,7.874,0.122
-0.097,-0.992,0.233,-55.176,8.972,-7.263
-0.075,-0.983,0.191,-58.105,8.484,-13.489
-0.048,-0.996,0.189,-59.631,5.737,-17.029
-0.012,-1.012,0.223,-61.035,1.465,-17.334
0.002,-1.027,0.266,-62.439,-1.465,-13.611
0.011,-1.035,0.295,-63.538,0.305,-7.690
0.020,-1.050,0.314,-64.575,5.127,-1.404
0.018,-1.058,0.339,-68.665,8.545,6.409
-0.021,-1.068,0.358,-74.951,10.071,13.672
-0.056,-1.057,0.341,-80.200,11.963,19.348
-0.080,-1.029,0.320,-83.130,15.198,22.522
-0.113,-1.002,0.285,-83.984,17.822,21.973
-0.111,-0.981,0.261,-81.787,19.165,18.921
-0.086,-0.968,0.281,-80.261,16.663,16.113
-0.043,-0.963,0.340,-81.543,10.681,15.320
-0.011,-0.975,0.416,-85.388,5.310,16.052
0.026,-0.975,0.491,-92.041,3.723,19.714
0.036,-0.977,0.546,-101.563,5.798,26.794
0.030,-0.986,0.571,-111.694,12.817,35.156
-0.000,-0.989,0.528,-118.408,22.522,42.725
-0.041,-0.984,0.445,-119.751,31.799,47.668
-0.060,-0.943,0.357,-117.004,36.560,49.744
-0.062,-0.910,0.311,-111.145,34.424,46.875
-0.032,-0.877,0.332,-105.530,27.466,40.344
0.010,-0.865,0.399,-104.065,17.212,34.668
0.033,-0.840,0.494,-106.018,5.981,30.273
0.057,-0.807,0.585,-110.901,-0.549,28.625
0.055,-0.794,0.656,-118.591,0.122,27.161
0.055,-0.790,0.695,-127.075,6.348,25.757
0.067,-0.787,0.713,-136.108,12.817,26.001
0.059,-0.796,0.725,-146.606,15.442,26.855
0.040,-0.798,0.731,-157.104,14.282,29.175
0.011,-0.794,0.726,-166.443,12.207,30.884
-0.024,-0.778,0.701,-172.119,10.315,30.579
-0.031,-0.748,0.657,-172.485,9.521,28.015
-0.024,-0.712,0.627,-170.471,7.935,21.912
-0.001,-0.685,0.620,-168.701,2.747,15.137
0.027,-0.667,0.642,-167.419,-5.737,9.949
0.057,-0.636,0.687,-167.175,-14.221,6.775
0.074,-0.603,0.741,-170.105,-20.691,4.761
0.077,-0.585,0.780,-174.377,-23.315,3.784
0.082,-0.567,0.819,-178.040,-20.691,3.540
0.058,-0.553,0.844,-180.481,-14.954,5.127
0.042,-0.535,0.852,-181.091,-8.362,10.498
0.024,-0.515,0.843,-179.199,-0.122,15.137
-0.010,-0.491,0.827,-173.340,7.568,17.334
-0.034,-0.442,0.786,-164.062,11.414,19.531
-0.039,-0.393,0.736,-151.245,12.146,18.494
-0.029,-0.343,0.717,-137.329,10.254,14.771
-0.006,-0.319,0.724,-124.939,5.188,11.108
0.011,-0.292,0.770,-115.356,-2.380,9.033
0.033,-0.275,0.834,-109.497,-7.568,8.118
0.047,-0.265,0.896,-108.459,-9.033,8.240
0.037,-0.258,0.927,-110.535,-7.751,10.498
0.020,-0.256,0.931,-112.305,-4.028,11.963
0.000,-0.255,0.891,-108.337,0.854,12.268
-0.004,-0.247,0.826,-95.581,3.540,11.597
0.034,-0.191,0.812,-77.820,1.892,10.559
0.033,-0.170,0.854,-63.049,-2.747,8.850
0.034,-0.154,0.896,-52.307,-6.042,7.751
0.033,-0.151,0.927,-44.495,-5.798,5.737
0.041,-0.153,0.946,-37.903,-2.808,3.540
0.052,-0.156,0.960,-31.860,1.709,2.502
0.056,-0.151,0.960,-26.733,6.348,3.052
0.055,-0.146,0.953,-22.888,9.644,4.150
0.040,-0.134,0.932,-18.494,10.559,4.089
0.045,-0.124,0.917,-12.512,10.254,2.441
0.043,-0.110,0.915,-6.226,8.972,-1.160
0.044,-0.108,0.910,-0.183,7.263,-3.723
0.037,-0.118,0.912,4.211,5.310,-4.700
0.043,-0.122,0.917,10.071,3.357,-6.592
0.053,-0.134,0.923,14.099,2.686,-8.301
0.069,-0.155,0.943,16.846,2.136,-8.240
0.074,-0.161,0.972,16.357,1.892,-6.104
0.066,-0.167,0.992,12.634,3.113,-3.540
0.055,-0.164,0.985,8.850,5.310,-1.404
0.053,-0.156,0.966,6.653,6.958,-0.122
0.049,-0.153,0.951,6.409,6.775,-0.427
0.048,-0.149,0.945,7.690,4.639,-1.282
0.044,-0.152,0.948,8.972,2.197,-2.808
0.049,-0.153,0.947,10.254,-0.122,-4.150
0.059,-0.161,0.939,11.536,-2.197,-4.883
0.069,-0.176,0.953,13.428,-3.540,-4.761
0.079,-0.183,0.975,14.587,-4.089,-4.028
0.081,-0.190,0.998,14.404,-2.136,-2.136
0.078,-0.186,1.003,13.123,1.465,0.183
0.062,-0.185,0.996,11.475,5.554,2.380
0.050,-0.169,0.981,11.475,8.606,3.540
0.048,-0.170,0.982,12.695,9.766,2.502
0.063,-0.158,0.982,13.367,10.193,0.427
0.057,-0.167,0.982,12.695,10.132,-1.709
0.066,-0.179,0.985,10.742,9.277,-1.282
0.061,-0.190,0.974,7.935,7.141,-0.366
0.069,-0.172,0.962,6.592,4.028,-0.305
0.077,-0.171,0.964,4.211,0.427,-0.305
0.078,-0.170,0.968,1.526,-1.953,0.183
0.081,-0.170,0.973,0.427,-2.258,0.488
0.085,-0.182,0.977,-0.061,-1.099,1.221

0.417,-1.738,1.172,526.367,-110.901,-58.594
0.283,-1.638,1.448,445.801,-106.018,-11.292
0.131,-1.536,1.357,370.117,-66.467,25.146
-0.045,-1.486,0.984,300.110,-14.343,37.354
-0.232,-1.458,0.490,241.821,15.503,27.161
-0.307,-1.444,0.175,190.918,6.165,2.747
-0.328,-1.485,0.128,142.639,-26.672,-33.508
-0.258,-1.591,0.291,104.431,-55.176,-68.787
-0.123,-1.704,0.497,78.491,-66.895,-94.482
-0.007,-1.817,0.660,53.528,-62.744,-100.586
0.061,-1.874,0.733,28.687,-49.805,-87.646
0.071,-1.860,0.695,7.507,-31.494,-61.340
0.047,-1.792,0.583,-8.057,-10.864,-31.555
-0.002,-1.688,0.451,-18.433,7.202,-5.249
-0.058,-1.577,0.338,-25.696,20.142,14.648
-0.092,-1.446,0.256,-30.945,27.100,27.954
-0.104,-1.325,0.206,-36.499,29.236,34.607
-0.094,-1.211,0.182,-44.678,28.320,35.889
-0.061,-1.122,0.193,-55.847,25.146,32.471
-0.025,-1.057,0.210,-70.557,20.325,27.039
0.016,-1.004,0.205,-87.158,16.052,21.912
0.062,-0.980,0.187,-104.492,13.916,17.456
0.096,-0.970,0.169,-121.033,12.878,14.343
0.124,-0.976,0.151,-135.254,12.878,12.329
0.155,-0.991,0.144,-148.254,11.902,12.024
0.173,-1.022,0.149,-160.095,10.376,13.855
0.176,-1.039,0.155,-169.739,8.545,18.616
0.162,-1.050,0.159,-175.293,8.606,24.353
0.132,-1.066,0.144,-176.758,13.000,30.334
0.124,-1.040,0.127,-174.011,18.372,36.377
0.116,-1.007,0.124,-168.091,21.179,40.039
0.118,-0.981,0.144,-162.903,21.423,41.992
0.123,-0.942,0.224,-159.729,18.250,41.382
0.114,-0.920,0.326,-160.461,14.404,39.551
0.088,-0.915,0.421,-165.283,13.672,37.903
0.046,-0.932,0.483,-169.250,18.860,35.645
0.049,-0.906,0.493,-169.678,28.992,33.630
0.057,-0.906,0.503,-172.546,36.743,29.907
0.060,-0.904,0.512,-179.687,38.513,24.719
0.075,-0.883,0.513,-187.622,35.583,20.630
0.088,-0.862,0.518,-195.862,31.067,16.174
0.070,-0.874,0.511,-202.026,27.588,11.597
0.076,-0.842,0.452,-202.087,25.818,9.338
0.082,-0.790,0.430,-194.580,21.179,7.446
0.084,-0.746,0.464,-184.448,12.573,7.202
0.077,-0.687,0.537,-173.828,4.089,7.629
0.063,-0.656,0.621,-164.795,1.404,6.287
0.073,-0.645,0.689,-158.142,5.249,4.700
0.082,-0.644,0.730,-152.100,13.977,4.272
0.083,-0.638,0.739,-146.729,25.635,5.920
0.078,-0.608,0.720,-141.602,36.316,9.277
0.071,-0.589,0.689,-137.268,43.030,11.292
0.066,-0.560,0.635,-132.751,43.579,11.536
0.082,-0.533,0.592,-126.770,37.109,9.277
0.103,-0.510,0.585,-120.361,24.536,5.676
0.128,-0.494,0.619,-113.525,9.277,2.197
0.138,-0.485,0.688,-108.704,-3.662,-0.305
0.144,-0.480,0.763,-106.506,-10.620,-1.648
0.142,-0.474,0.815,-106.201,-10.864,-3.113
0.140,-0.474,0.825,-106.628,-7.019,-4.089
0.152,-0.468,0.821,-105.896,-2.075,-4.272
0.151,-0.474,0.818,-103.699,1.892,-2.563
0.132,-0.456,0.793,-99.670,3.723,1.160
0.112,-0.416,0.763,-90.149,4.211,2.930
0.103,-0.388,0.735,-78.125,2.136,2.319
0.121,-0.348,0.745,-64.697,-3.784,1.404
0.112,-0.346,0.803,-54.626,-10.376,-1.282
0.123,-0.346,0.890,-48.706,-16.357,-3.967
0.124,-0.352,0.952,-49.500,-18.738,-5.127
0.129,-0.359,0.978,-53.894,-17.822,-5.676
0.128,-0.363,0.979,-59.814,-15.747,-5.615
0.125,-0.353,0.945,-63.782,-14.343,-4.700
0.121,-0.329,0.908,-63.843,-14.648,-3.906
0.112,-0.316,0.877,-58.960,-15.930,-4.089
0.113,-0.287,0.875,-49.805,-17.822,-4.517
0.106,-0.265,0.909,-39.246,-18.433,-5.188
0.095,-0.256,0.944,-31.494,-16.663,-5.859
0.089,-0.252,0.957,-27.100,-12.695,-7.385
0.092,-0.252,0.953,-23.499,-8.240,-9.155
0.095,-0.251,0.943,-20.081,-5.005,-9.766
0.095,-0.259,0.943,-16.968,-2.686,-9.216
0.094,-0.260,0.931,-13.489,-0.732,-8.423
0.105,-0.265,0.919,-8.606,1.282,-7.874
0.117,-0.272,0.913,-3.723,2.563,-6.897
0.114,-0.267,0.913,0.793,3.662,-5.310
0.108,-0.262,0.927,4.517,3.967,-4.700
0.117,-0.263,0.933,5.615,4.272,-5.066
0.124,-0.269,0.932,4.822,3.418,-5.127
0.125,-0.268,0.936,2.808,1.526,-4.883
0.126,-0.277,0.945,0.427,-0.244,-4.700
0.123,-0.285,0.943,-1.038,-0.671,-4.456
0.129,-0.280,0.929,-0.854,-0.183,-3.235
0.126,-0.275,0.924,0.427,0.366,-2.380
0.130,-0.277,0.932,2.258,1.099,-1.953
0.131,-0.277,0.932,4.028,2.014,-1.831
0.131,-0.276,0.927,4.761,3.052,-1.038
0.133,-0.270,0.927,4.883,3.418,-0.366
0.135,-0.275,0.932,4.272,3.174,0.488
0.130,-0.273,0.934,2.625,2.502,1.343
0.123,-0.269,0.931,0.793,2.136,1.587
0.119,-0.268,0.915,0.061,1.892,0.732
0.118,-0.267,0.902,0.732,1.038,0.122
0.119,-0.268,0.903,2.808,-0.061,0.061
0.121,-0.270,0.910,5.493,-0.671,-0.061
0.110,-0.273,0.923,7.629,-0.549,0.305
0.115,-0.266,0.927,9.033,0.183,0.427
0.117,-0.265,0.934,9.155,0.671,0.305
0.112,-0.268,0.944,7.629,0.610,0.916
0.105,-0.267,0.950,5.676,0.610,1.465
0.103,-0.269,0.949,4.272,0.671,1.465
0.099,-0.270,0.945,3.479,0.610,1.221
0.101,-0.270,0.948,3.418,0.061,0.793
0.106,-0.274,0.947,3.357,-0.549,0.122
0.108,-0.278,0.947,3.479,-1.038,-0.488
0.115,-0.281,0.944,3.723,-0.977,-0.854
0.125,-0.284,0.944,4.333,-0.183,-0.488
0.125,-0.286,0.943,4.822,0.549,0.061
0.125,-0.289,0.950,5.249,1.404,0.671
0.127,-0.291,0.950,5.310,2.014,1.038

0.328,-1.849,1.241,582.947,-97.046,-21.423
0.324,-1.739,1.685,502.014,-55.786,8.179
0.264,-1.629,1.790,412.048,-5.554,28.015
0.054,-1.551,1.518,310.242,31.677,36.072
-0.179,-1.463,1.117,206.238,41.138,27.771
-0.353,-1.387,0.720,106.323,22.095,4.395
-0.441,-1.367,0.437,24.780,-6.775,-37.537
-0.429,-1.390,0.310,-32.410,-30.762,-84.290
-0.333,-1.473,0.314,-69.031,-46.021,-123.108
-0.161,-1.543,0.361,-84.717,-51.453,-140.930
0.003,-1.603,0.383,-83.252,-44.739,-133.545
0.117,-1.626,0.346,-70.068,-23.987,-102.783
0.166,-1.583,0.238,-47.729,4.822,-56.519
0.148,-1.503,0.102,-23.193,31.860,-7.141
0.086,-1.398,-0.011,-2.136,49.683,36.072
0.037,-1.290,-0.074,12.451,56.091,66.528
0.023,-1.196,-0.060,18.311,52.063,82.764
0.016,-1.115,0.004,14.282,41.870,87.524
0.020,-1.044,0.073,3.906,32.593,84.534
0.016,-0.989,0.110,-9.888,26.611,76.965
0.010,-0.942,0.105,-24.292,22.949,66.711
0.004,-0.901,0.082,-37.048,19.226,55.847
0.009,-0.879,0.060,-47.302,14.465,45.044
0.031,-0.882,0.069,-56.763,8.423,35.156
0.046,-0.896,0.111,-66.772,0.549,27.039
0.050,-0.918,0.177,-77.026,-6.592,21.912
0.049,-0.938,0.238,-87.280,-9.644,18.555
0.044,-0.968,0.277,-98.328,-10.010,16.357
0.030,-0.998,0.299,-109.924,-9.583,15.625
0.011,-1.001,0.309,-120.605,-9.338,15.015
0.005,-1.004,0.317,-130.188,-8.850,12.695
0.011,-1.007,0.338,-140.198,-8.850,9.216
0.036,-1.011,0.366,-151.978,-10.620,6.104
0.051,-1.025,0.393,-165.466,-13.306,5.310
0.040,-1.020,0.389,-175.903,-15.137,6.042
0.022,-1.019,0.364,-180.725,-12.451,8.118
0.022,-1.011,0.338,-179.565,-7.385,10.681
0.018,-0.996,0.340,-174.194,-3.113,12.451
0.023,-1.000,0.352,-167.786,1.526,14.465
0.023,-0.983,0.352,-159.119,6.714,17.639
0.022,-0.957,0.360,-147.156,11.719,20.996
0.040,-0.938,0.385,-135.803,17.090,23.865
0.063,-0.917,0.419,-125.671,22.095,26.855
0.085,-0.899,0.470,-118.042,26.489,29.907
0.112,-0.869,0.528,-114.990,30.212,32.715
0.125,-0.852,0.595,-118.347,33.813,35.583
0.097,-0.848,0.624,-126.404,38.147,37.720
0.084,-0.823,0.595,-135.071,44.128,39.063
0.040,-0.799,0.525,-140.259,46.753,37.292
0.002,-0.759,0.446,-139.893,43.030,32.349
-0.005,-0.712,0.399,-131.836,32.410,25.940
0.007,-0.674,0.401,-120.300,18.677,18.433
0.023,-0.654,0.476,-107.117,4.150,10.681
0.044,-0.646,0.579,-96.375,-5.920,4.944
0.064,-0.648,0.672,-89.355,-7.324,2.380
0.080,-0.645,0.737,-85.510,-2.686,2.930
0.101,-0.638,0.777,-86.792,5.554,5.615
0.100,-0.636,0.784,-91.675,14.099,8.240
0.080,-0.625,0.769,-97.473,20.508,10.376
0.059,-0.615,0.734,-101.685,23.804,9.399
0.055,-0.624,0.675,-102.966,23.376,5.615
0.067,-0.624,0.631,-100.647,16.724,1.953
0.088,-0.583,0.630,-94.727,3.845,-0.977
0.108,-0.593,0.676,-89.294,-9.338,-4.211
0.122,-0.565,0.747,-82.458,-19.043,-5.798
0.115,-0.554,0.831,-76.599,-22.644,-5.310
0.114,-0.546,0.898,-72.449,-18.127,-4.456
0.113,-0.545,0.944,-69.824,-7.568,-2.319
0.113,-0.550,0.962,-68.909,5.188,1.038
0.103,-0.534,0.953,-68.665,18.127,5.676
0.088,-0.518,0.936,-69.092,28.076,9.583
0.068,-0.506,0.903,-70.068,32.776,10.437
0.053,-0.490,0.855,-71.167,31.372,9.094
0.065,-0.454,0.803,-72.510,22.522,5.493
0.065,-0.454,0.781,-73.303,6.775,0.183
0.106,-0.431,0.808,-71.838,-9.949,-4.150
0.124,-0.440,0.854,-71.106,-22.278,-6.897
0.133,-0.436,0.896,-70.679,-27.161,-7.935
0.143,-0.427,0.922,-68.542,-24.414,-7.080
0.151,-0.422,0.935,-65.735,-16.235,-5.554
0.151,-0.422,0.940,-62.500,-5.981,-3.601
0.147,-0.414,0.937,-58.228,4.211,-0.610
0.144,-0.404,0.929,-53.894,13.123,1.892
0.141,-0.391,0.916,-50.720,18.982,4.028
0.122,-0.380,0.899,-49.072,20.264,5.432
0.115,-0.362,0.874,-47.058,17.151,4.883
0.122,-0.338,0.840,-43.945,11.353,2.441
0.125,-0.332,0.845,-39.917,2.625,-0.793
0.137,-0.322,0.861,-35.583,-4.822,-2.075
0.138,-0.317,0.883,-32.349,-9.094,-2.869
0.138,-0.320,0.897,-30.151,-10.254,-3.540
0.145,-0.325,0.913,-28.625,-9.521,-3.052
0.152,-0.328,0.929,-28.442,-7.568,-1.648
0.145,-0.330,0.934,-28.870,-4.761,0.916
0.138,-0.327,0.920,-27.893,-0.793,2.869
0.128,-0.313,0.897,-25.513,2.563,3.845
0.124,-0.307,0.888,-21.973,3.723,3.296
0.125,-0.308,0.881,-18.127,3.235,2.441
0.128,-0.306,0.882,-14.648,1.953,1.953
0.122,-0.298,0.881,-11.292,0.366,2.014
0.116,-0.282,0.876,-7.935,-1.404,2.258
0.113,-0.281,0.880,-4.700,-3.113,1.526
0.113,-0.284,0.896,-1.953,-4.517,0.854
0.113,-0.287,0.909,-0.854,-4.822,1.160
0.112,-0.283,0.919,-0.488,-3.723,1.648
0.112,-0.283,0.928,-0.916,-1.465,2.014
0.113,-0.289,0.928,-1.709,0.916,2.502
0.112,-0.286,0.919,-2.014,2.991,3.296
0.104,-0.278,0.907,-1.648,3.784,3.540
0.107,-0.271,0.899,-0.610,3.357,2.686
0.113,-0.279,0.903,0.305,1.953,1.160
0.119,-0.287,0.916,1.099,0.183,0.183
0.119,-0.286,0.922,1.404,-0.916,0.366
0.121,-0.281,0.921,1.038,-1.038,0.549
0.125,-0.280,0.921,1.221,-1.160,0.671
0.120,-0.275,0.924,2.014,-0.977,0.977
0.117,-0.271,0.926,2.686,-0.549,1.099
0.110,-0.268,0.923,3.296,0.122,0.916
0.106,-0.264,0.923,4.517,-0.061,0.488

0.558,-2.135,0.957,554.810,-130.981,-120.117
0.447,-2.107,1.605,457.764,-170.227,-48.767
0.403,-1.943,2.045,370.850,-150.696,21.362
0.249,-1.792,2.039,286.987,-79.773,79.224
0.042,-1.593,1.705,206.665,-0.671,114.136
-0.196,-1.507,1.173,128.601,46.631,125.183
-0.384,-1.349,0.689,64.758,49.438,117.615
-0.455,-1.219,0.364,11.475,27.222,90.271
-0.442,-1.188,0.192,-27.222,-0.488,48.889
-0.337,-1.170,0.159,-45.776,-21.179,8.789
-0.219,-1.179,0.228,-48.950,-31.433,-18.860
-0.093,-1.182,0.335,-43.945,-29.724,-28.442
-0.010,-1.173,0.414,-35.339,-18.250,-21.301
0.031,-1.148,0.443,-28.442,-1.892,-4.333
0.018,-1.103,0.421,-26.672,13.245,17.029
-0.039,-1.052,0.355,-27.161,25.879,35.950
-0.087,-0.979,0.256,-28.687,35.461,46.509
-0.115,-0.931,0.167,-32.898,39.490,47.424
-0.127,-0.898,0.091,-38.574,36.438,40.222
-0.116,-0.876,0.042,-43.030,28.076,27.649
-0.086,-0.866,0.020,-46.143,18.005,11.719
-0.040,-0.878,0.028,-48.035,8.484,-3.906
0.008,-0.905,0.059,-49.988,-0.793,-16.907
0.040,-0.932,0.107,-52.185,-9.277,-25.024
0.069,-0.958,0.159,-53.528,-13.794,-28.687
0.094,-0.984,0.204,-54.016,-13.245,-28.198
0.116,-1.005,0.240,-54.749,-10.925,-23.682
0.122,-1.028,0.276,-57.190,-8.362,-15.808
0.119,-1.046,0.318,-61.218,-6.531,-6.653
0.095,-1.055,0.349,-66.101,-3.967,2.991
0.050,-1.059,0.365,-71.289,1.404,12.146
0.024,-1.045,0.360,-74.768,7.996,18.433
-0.001,-1.044,0.357,-78.674,12.817,21.912
-0.014,-1.037,0.361,-83.252,13.733,23.193
-0.027,-1.020,0.378,-88.257,10.437,23.010
-0.036,-1.000,0.405,-93.811,6.226,21.057
-0.033,-0.985,0.433,-100.159,3.601,18.555
-0.009,-0.965,0.470,-106.689,2.563,15.808
0.001,-0.967,0.500,-113.586,1.953,12.268
0.032,-0.949,0.514,-121.216,2.930,11.780
0.070,-0.960,0.541,-130.127,5.371,14.038
0.086,-0.969,0.558,-137.085,8.972,17.090
0.065,-0.983,0.570,-140.747,14.709,23.499
0.051,-0.975,0.553,-139.465,22.827,32.288
0.044,-0.957,0.534,-132.874,32.654,39.124
0.031,-0.943,0.516,-124.207,41.199,42.969
0.023,-0.909,0.501,-113.708,46.448,45.288
0.022,-0.874,0.501,-104.309,49.133,45.471
0.025,-0.845,0.517,-96.313,49.316,44.861
0.049,-0.821,0.550,-91.309,48.218,43.579
0.070,-0.795,0.584,-90.515,45.349,41.931
0.079,-0.763,0.624,-93.628,41.626,40.161
0.084,-0.758,0.653,-100.281,38.696,38.391
0.097,-0.728,0.672,-107.666,37.659,35.706
0.082,-0.755,0.653,-113.647,36.621,31.250
0.095,-0.732,0.618,-116.394,34.729,26.428
0.103,-0.724,0.589,-117.188,29.358,21.484
0.120,-0.726,0.590,-116.272,20.935,16.418
0.134,-0.709,0.583,-112.854,12.329,12.634
0.152,-0.692,0.599,-108.093,4.944,10.254
0.161,-0.677,0.626,-103.821,-0.610,8.850
0.163,-0.661,0.662,-100.037,-2.197,8.057
0.165,-0.638,0.690,-95.947,-0.732,8.606
0.170,-0.619,0.721,-91.858,3.845,10.376
0.171,-0.606,0.760,-89.233,10.132,12.573
0.169,-0.601,0.805,-89.539,16.968,15.381
0.157,-0.571,0.816,-91.553,23.621,18.738
0.137,-0.568,0.800,-94.727,30.151,20.264
0.127,-0.547,0.763,-95.459,33.447,19.165
0.120,-0.540,0.725,-94.971,30.151,17.822
0.120,-0.522,0.693,-91.736,21.912,14.893
0.145,-0.492,0.683,-87.219,10.803,10.559
0.162,-0.486,0.709,-84.717,-1.892,5.615
0.175,-0.489,0.753,-83.313,-12.878,1.770
0.185,-0.474,0.800,-82.764,-20.996,0.061
0.190,-0.462,0.853,-84.106,-24.231,0.000
0.187,-0.447,0.889,-87.036,-22.888,1.099
0.172,-0.430,0.907,-90.027,-18.005,3.052
0.154,-0.410,0.908,-91.614,-11.047,4.456
0.142,-0.409,0.899,-91.248,-3.967,4.578
0.136,-0.395,0.859,-87.769,1.953,4.456
0.142,-0.374,0.830,-81.116,3.662,3.052
0.148,-0.365,0.813,-74.707,0.610,1.160
0.144,-0.354,0.807,-68.909,-5.249,-0.183
0.158,-0.332,0.832,-63.416,-11.475,-2.136
0.167,-0.330,0.856,-59.998,-16.968,-4.395
0.178,-0.335,0.885,-58.655,-20.081,-5.005
0.184,-0.336,0.919,-57.800,-20.874,-4.395
0.179,-0.328,0.945,-57.861,-19.348,-2.502
0.168,-0.317,0.954,-58.411,-15.320,-0.488
0.159,-0.307,0.938,-57.861,-10.681,0.610
0.153,-0.292,0.909,-54.749,-7.385,1.648
0.154,-0.273,0.904,-49.500,-5.615,2.258
0.148,-0.260,0.902,-43.945,-4.211,2.686
0.134,-0.247,0.907,-39.001,-3.540,2.686
0.137,-0.245,0.921,-34.241,-2.991,1.160
0.143,-0.229,0.931,-32.410,-2.502,-0.854
0.142,-0.238,0.921,-32.410,-2.625,-2.380
0.145,-0.229,0.898,-31.494,-3.906,-3.235
0.150,-0.237,0.892,-28.748,-6.348,-3.784
0.154,-0.228,0.896,-25.085,-9.094,-3.052
0.157,-0.232,0.911,-21.484,-11.047,-2.380
0.160,-0.239,0.930,-18.127,-11.292,-1.404
0.154,-0.237,0.947,-14.954,-9.277,1.038
0.148,-0.228,0.951,-12.329,-5.981,3.784
0.140,-0.216,0.945,-9.888,-1.892,5.554
0.127,-0.203,0.933,-7.141,1.709,6.104
0.119,-0.191,0.924,-4.578,3.723,5.249
0.123,-0.195,0.930,-2.502,3.662,3.540
0.121,-0.195,0.941,-1.648,2.319,2.319
0.118,-0.195,0.944,-2.258,0.916,1.343
0.122,-0.193,0.937,-2.991,0.244,-0.061
0.124,-0.199,0.929,-3.357,-0.244,-0.977
0.131,-0.204,0.922,-2.747,-0.916,-1.526
0.137,-0.208,0.919,-0.854,-1.709,-1.404
0.139,-0.207,0.924,1.465,-2.441,-0.549
0.140,-0.208,0.941,3.174,-2.869,0.732
0.138,-0.209,0.957,3.723,-2.014,1.770
0.139,-0.211,0.960,3.540,-0.793,2.747

0.583,-1.988,0.114,688.354,-85.022,-152.771
0.616,-2.086,0.760,593.933,-147.644,-93.689
0.404,-1.910,1.417,486.511,-183.044,-23.865
0.360,-1.631,1.697,400.330,-141.174,29.907
0.197,-1.522,1.443,319.885,-47.852,47.363
0.047,-1.428,1.005,237.000,8.057,42.542
-0.158,-1.359,0.619,148.560,3.235,25.513
-0.245,-1.295,0.407,75.806,-26.245,-6.042
-0.231,-1.344,0.339,25.452,-48.340,-48.218
-0.135,-1.426,0.367,-5.615,-58.838,-83.740
-0.030,-1.496,0.458,-22.766,-63.416,-98.328
0.031,-1.526,0.557,-32.959,-59.265,-90.332
0.042,-1.518,0.600,-35.461,-42.236,-66.895
0.024,-1.489,0.574,-33.081,-16.296,-36.438
0.003,-1.427,0.498,-30.823,9.033,-5.615
-0.018,-1.351,0.440,-32.776,25.879,20.264
-0.071,-1.292,0.403,-41.321,33.630,38.696
-0.105,-1.216,0.351,-53.467,37.231,49.072
-0.109,-1.159,0.295,-65.918,38.940,51.575
-0.096,-1.088,0.233,-77.759,37.231,48.584
-0.071,-1.024,0.190,-87.219,32.837,41.565
-0.017,-0.977,0.176,-96.802,27.222,32.837
0.037,-0.954,0.176,-105.652,21.118,22.888
0.090,-0.946,0.188,-115.417,15.259,14.587
0.152,-0.952,0.221,-126.282,10.193,10.925
0.189,-0.964,0.254,-136.047,7.202,9.033
0.212,-0.985,0.277,-145.813,7.080,10.742
0.190,-1.000,0.279,-153.320,10.620,12.939
0.158,-1.008,0.273,-154.480,16.602,15.930
0.111,-1.021,0.241,-151.123,22.705,18.738
0.089,-1.012,0.213,-142.029,26.611,21.606
0.060,-1.003,0.213,-130.371,25.513,22.705
0.076,-0.966,0.247,-117.371,21.179,22.461
0.095,-0.930,0.316,-108.032,14.160,22.583
0.098,-0.914,0.385,-104.370,7.446,23.621
0.109,-0.883,0.443,-104.553,4.272,25.940
0.113,-0.890,0.465,-106.384,5.554,27.039
0.114,-0.873,0.470,-108.887,9.460,26.123
0.120,-0.860,0.459,-111.267,13.977,27.039
0.117,-0.859,0.449,-112.976,16.541,26.306
0.109,-0.859,0.454,-110.840,18.127,23.560
0.105,-0.844,0.462,-105.469,18.799,22.156
0.109,-0.827,0.481,-98.816,18.555,22.766
0.110,-0.817,0.513,-92.590,17.944,25.757
0.099,-0.795,0.542,-86.609,18.921,29.236
0.094,-0.766,0.560,-82.031,21.973,32.104
0.100,-0.751,0.580,-78.308,25.757,33.081
0.119,-0.737,0.612,-77.637,28.259,33.447
0.136,-0.716,0.649,-81.726,28.259,33.875
0.161,-0.677,0.694,-92.529,27.283,35.400
0.135,-0.699,0.719,-107.788,26.062,33.386
0.130,-0.697,0.706,-122.192,25.879,29.541
0.113,-0.701,0.652,-131.165,24.963,23.682
0.117,-0.676,0.577,-135.193,20.752,17.334
0.127,-0.668,0.529,-134.094,11.597,12.085
0.136,-0.649,0.530,-129.211,-1.892,8.362
0.142,-0.628,0.585,-120.972,-14.099,5.859
0.152,-0.602,0.657,-112.366,-20.996,4.028
0.150,-0.579,0.734,-105.713,-20.813,3.723
0.141,-0.569,0.807,-101.563,-15.259,4.700
0.136,-0.553,0.857,-99.976,-6.104,6.653
0.122,-0.540,0.878,-101.685,4.150,8.728
0.116,-0.548,0.868,-106.262,12.573,10.498
0.111,-0.548,0.820,-108.276,15.686,9.155
0.111,-0.530,0.767,-108.887,11.902,6.897
0.117,-0.506,0.718,-110.718,0.549,6.531
0.120,-0.497,0.698,-110.474,-16.541,4.028
0.134,-0.474,0.714,-106.018,-34.363,0.366
0.151,-0.454,0.770,-99.243,-47.058,-3.662
0.168,-0.450,0.833,-93.201,-50.598,-5.920
0.177,-0.453,0.890,-86.975,-44.922,-5.493
0.169,-0.442,0.931,-81.299,-33.264,-2.625
0.148,-0.424,0.943,-75.745,-18.982,2.197
0.131,-0.403,0.939,-70.251,-4.883,6.348
0.113,-0.391,0.927,-66.162,5.493,9.094
0.092,-0.384,0.893,-62.256,10.864,10.071
0.097,-0.346,0.864,-56.580,10.742,8.911
0.098,-0.350,0.850,-51.880,5.371,5.432
0.114,-0.341,0.855,-47.852,-2.930,2.686
0.136,-0.351,0.882,-44.373,-11.230,0.549
0.144,-0.350,0.917,-43.152,-17.517,0.000
0.150,-0.337,0.929,-42.358,-18.982,0.610
0.147,-0.336,0.941,-41.809,-16.663,2.014
0.145,-0.325,0.935,-39.978,-12.512,3.418
0.136,-0.303,0.928,-36.926,-8.179,5.310
0.124,-0.293,0.927,-33.081,-4.822,6.409
0.113,-0.283,0.930,-28.992,-1.953,7.019
0.111,-0.276,0.931,-24.475,0.916,6.592
0.111,-0.270,0.931,-19.775,3.967,5.432
0.103,-0.270,0.924,-14.832,6.836,4.333
0.107,-0.265,0.903,-8.911,9.033,3.479
0.115,-0.256,0.891,-3.296,9.338,2.563
0.122,-0.269,0.895,0.671,7.446,1.831
0.136,-0.286,0.915,2.930,4.761,1.465
0.142,-0.294,0.943,2.319,2.686,3.296
0.142,-0.294,0.952,-0.732,1.587,5.859
0.142,-0.291,0.942,-4.395,1.648,7.874
0.137,-0.282,0.932,-6.836,2.502,9.460
0.124,-0.276,0.932,-7.263,3.174,9.521
0.125,-0.267,0.926,-6.531,3.662,8.240
0.123,-0.266,0.920,-4.578,4.333,6.470
0.125,-0.263,0.924,-1.648,4.456,5.005
0.128,-0.266,0.935,0.366,4.211,4.089
0.127,-0.264,0.943,1.282,4.456,3.845
0.119,-0.257,0.944,1.526,4.578,3.662
0.117,-0.255,0.949,0.732,4.700,3.174
0.120,-0.257,0.953,-0.305,4.272,2.441
0.126,-0.263,0.950,-1.831,4.089,2.197
0.127,-0.263,0.946,-2.808,4.272,2.502
0.128,-0.261,0.944,-2.563,4.272,2.625
0.129,-0.260,0.933,-2.075,4.517,2.014
0.131,-0.258,0.923,-0.793,4.517,1.160
0.126,-0.254,0.915,1.709,4.028,-0.427
0.132,-0.251,0.915,4.700,2.991,-1.526
0.131,-0.255,0.926,6.775,1.465,-2.136
0.135,-0.259,0.942,7.568,1.221,-2.441
0.141,-0.277,0.961,6.653,1.953,-2.258
0.146,-0.274,0.971,4.211,3.540,-0.793
0.149,-0.275,0.963,0.610,5.737,1.038

0.077,-1.967,-1.132,796.509,-13.245,-193.726
0.379,-2.178,-0.721,827.698,-51.270,-167.603
0.538,-2.323,-0.143,800.171,-95.581,-114.563
0.566,-2.286,0.677,731.873,-133.789,-42.053
0.660,-2.099,1.400,658.142,-124.695,35.156
0.599,-1.846,1.765,577.515,-65.063,100.464
0.368,-1.543,1.748,473.389,4.822,148.621
-0.041,-1.250,1.364,343.811,43.579,165.039
-0.435,-1.028,0.810,213.257,45.166,136.475
-0.646,-0.940,0.321,100.220,20.264,68.237
-0.686,-1.043,0.019,12.573,-15.320,-26.062
-0.549,-1.265,-0.012,-43.091,-50.720,-116.577
-0.292,-1.502,0.127,-70.129,-73.975,-177.490
-0.039,-1.685,0.302,-76.111,-77.637,-194.580
0.143,-1.783,0.394,-70.801,-60.120,-171.631
0.234,-1.781,0.344,-57.556,-28.625,-123.901
0.247,-1.716,0.206,-43.396,2.136,-67.566
0.195,-1.593,0.059,-34.363,19.531,-15.381
0.109,-1.462,-0.036,-29.175,25.330,23.132
0.053,-1.333,-0.105,-24.658,28.809,44.617
0.032,-1.220,-0.138,-22.888,30.579,49.805
0.042,-1.125,-0.148,-25.208,28.320,43.396
0.065,-1.054,-0.143,-30.640,22.156,30.884
0.101,-1.002,-0.121,-38.574,14.038,16.907
0.126,-0.966,-0.101,-45.288,7.263,5.127
0.154,-0.944,-0.079,-50.842,2.991,-2.808
0.193,-0.952,-0.048,-56.946,-1.221,-6.470
0.216,-0.967,0.004,-66.101,-7.935,-5.981
0.205,-0.987,0.072,-76.660,-14.526,-1.526
0.176,-1.008,0.123,-85.266,-15.076,5.371
0.131,-1.041,0.155,-91.614,-9.888,12.939
0.087,-1.061,0.158,-97.717,-4.700,20.691
0.064,-1.073,0.175,-104.065,-2.197,26.855
0.033,-1.085,0.203,-111.877,-3.235,29.724
0.011,-1.098,0.231,-121.277,-4.578,30.640
0.015,-1.092,0.260,-131.592,-5.554,30.457
0.017,-1.103,0.285,-141.907,-6.592,28.381
0.038,-1.079,0.296,-150.757,-7.263,25.330
0.064,-1.066,0.318,-160.278,-7.446,24.719
0.079,-1.050,0.345,-169.128,-6.409,24.353
0.129,-1.048,0.388,-177.979,-2.991,25.269
0.135,-1.046,0.444,-189.331,-0.671,28.687
0.132,-1.038,0.479,-200.928,2.380,35.217
0.092,-1.044,0.484,-206.909,10.437,39.063
0.069,-1.042,0.449,-206.421,24.048,43.091
0.036,-1.016,0.370,-198.242,38.025,47.974
0.022,-0.984,0.281,-183.411,49.377,51.697
0.031,-0.946,0.224,-164.246,54.688,53.345
0.050,-0.896,0.227,-142.456,53.833,52.795
0.080,-0.855,0.280,-124.023,49.927,50.842
0.108,-0.822,0.369,-110.718,44.556,49.438
0.120,-0.791,0.460,-103.455,40.405,48.645
0.121,-0.755,0.519,-100.647,39.856,46.936
0.124,-0.734,0.553,-102.905,40.771,44.373
0.136,-0.717,0.575,-109.375,41.260,41.199
0.113,-0.702,0.562,-115.906,40.344,37.659
0.095,-0.676,0.526,-118.958,38.269,33.569
0.094,-0.645,0.496,-118.347,34.363,27.832
0.104,-0.637,0.480,-113.647,27.893,20.691
0.115,-0.646,0.482,-106.323,18.738,14.465
0.127,-0.639,0.502,-97.595,8.362,10.742
0.147,-0.637,0.568,-88.867,-0.916,8.240
0.160,-0.633,0.659,-83.130,-6.104,6.592
0.167,-0.630,0.720,-81.482,-5.554,5.920
0.170,-0.627,0.749,-82.825,-0.488,5.615
0.182,-0.631,0.755,-86.975,5.920,4.822
0.182,-0.644,0.737,-91.370,11.047,4.517
0.181,-0.625,0.704,-94.177,12.085,5.188
0.174,-0.606,0.692,-94.482,9.216,4.456
0.176,-0.592,0.698,-93.567,4.028,2.686
0.166,-0.576,0.700,-91.553,-1.343,1.282
0.160,-0.560,0.703,-86.731,-5.798,-1.282
0.169,-0.550,0.723,-79.529,-9.338,-4.578
0.177,-0.553,0.746,-71.960,-11.902,-6.470
0.188,-0.544,0.790,-64.941,-12.695,-7.568
0.197,-0.548,0.828,-61.523,-10.254,-7.263
0.199,-0.545,0.854,-59.814,-5.005,-6.226
0.205,-0.534,0.872,-59.387,1.770,-5.127
0.199,-0.522,0.882,-61.340,7.935,-3.723
0.195,-0.507,0.884,-66.772,11.597,-2.930
0.198,-0.498,0.859,-75.256,11.475,-3.113
0.193,-0.486,0.812,-83.618,5.676,-4.150
0.192,-0.466,0.763,-87.463,-5.249,-5.188
0.199,-0.445,0.732,-86.548,-19.165,-6.958
0.204,-0.428,0.755,-80.750,-32.959,-8.789
0.214,-0.400,0.804,-73.669,-41.687,-10.376
0.211,-0.411,0.868,-67.810,-41.626,-11.780
0.215,-0.410,0.905,-62.500,-33.813,-11.536
0.213,-0.415,0.913,-57.983,-20.935,-9.460
0.218,-0.418,0.916,-53.894,-8.179,-6.653
0.221,-0.420,0.918,-51.880,1.221,-3.601
0.211,-0.416,0.915,-52.673,7.019,0.183
0.189,-0.393,0.874,-55.725,7.263,2.930
0.184,-0.354,0.825,-59.753,0.061,2.808
0.178,-0.335,0.804,-62.805,-13.123,-0.061
0.187,-0.327,0.813,-64.026,-28.687,-3.357
0.194,-0.323,0.855,-62.683,-40.833,-5.310
0.179,-0.323,0.902,-59.570,-44.800,-5.798
0.176,-0.316,0.932,-53.833,-40.161,-5.859
0.175,-0.322,0.963,-46.753,-29.724,-4.883
0.176,-0.321,0.989,-40.283,-16.357,-1.953
0.166,-0.310,1.000,-36.804,-3.662,2.380
0.148,-0.298,0.998,-36.072,6.592,5.249
0.139,-0.281,0.969,-35.828,13.428,6.287
0.138,-0.268,0.926,-35.156,15.320,5.981
0.141,-0.258,0.891,-32.532,11.841,5.127
0.148,-0.244,0.875,-29.602,4.333,4.089
0.156,-0.235,0.886,-26.672,-4.333,2.441
0.162,-0.236,0.897,-24.658,-10.681,1.099
0.165,-0.246,0.914,-23.499,-14.343,0.732
0.164,-0.243,0.933,-22.888,-15.869,2.441
0.158,-0.242,0.943,-22.949,-14.343,4.456
0.146,-0.236,0.941,-22.400,-10.864,6.470
0.130,-0.221,0.943,-20.813,-7.141,7.690
0.116,-0.208,0.936,-18.555,-4.272,7.874
0.108,-0.196,0.916,-15.381,-1.892,7.019
0.114,-0.189,0.893,-10.315,-0.793,5.554
0.096,-0.173,0.900,-3.357,-0.244,2.991
0.112,-0.172,0.907,3.967,0.916,1.526

0.748,-1.913,-0.764,785.278,168.701,-143.860
0.791,-2.059,-0.207,766.418,57.739,-79.102
0.560,-1.954,0.431,708.557,-39.307,5.554
0.306,-1.691,1.001,639.771,-73.181,69.580
0.245,-1.440,1.247,572.754,-38.330,99.426
0.205,-1.335,1.193,495.972,20.020,97.717
0.095,-1.198,1.034,398.376,39.856,82.214
-0.065,-1.023,0.869,289.795,21.729,52.673
-0.125,-0.945,0.700,188.538,1.465,2.441
-0.063,-1.013,0.556,100.403,-12.451,-57.678
0.033,-1.178,0.501,28.076,-30.701,-105.896
0.099,-1.331,0.471,-21.301,-41.748,-129.089
0.152,-1.448,0.387,-45.898,-35.645,-128.906
0.222,-1.536,0.244,-49.561,-20.508,-110.168
0.290,-1.589,0.112,-38.208,-6.042,-75.867
0.286,-1.570,0.020,-15.381,9.399,-32.288
0.246,-1.507,-0.065,12.695,28.870,7.568
0.200,-1.422,-0.109,35.217,41.809,36.865
0.165,-1.313,-0.056,45.288,41.748,52.917
0.121,-1.182,0.044,39.612,34.546,55.359
0.090,-1.060,0.092,20.020,26.611,45.227
0.073,-0.973,0.078,-6.348,17.517,27.649
0.075,-0.921,0.047,-31.677,7.446,8.179
0.080,-0.887,0.015,-50.537,0.000,-8.240
0.085,-0.890,-0.001,-61.707,-5.005,-20.752
0.094,-0.907,0.017,-66.040,-8.301,-27.832
0.105,-0.935,0.056,-65.308,-8.484,-28.687
0.116,-0.965,0.081,-61.462,-4.883,-24.658
0.117,-0.987,0.081,-56.885,1.709,-17.395
0.101,-0.983,0.052,-52.551,8.240,-9.521
0.077,-0.969,0.006,-49.011,12.329,-4.761
0.054,-0.948,-0.038,-45.959,12.512,-4.089
0.054,-0.931,-0.060,-43.152,8.118,-7.690
0.076,-0.932,-0.037,-41.565,1.343,-14.282
0.102,-0.944,0.003,-41.443,-4.883,-20.752
0.127,-0.967,0.043,-42.358,-7.874,-24.658
0.152,-0.997,0.076,-43.213,-7.507,-25.269
0.173,-1.023,0.106,-44.006,-5.554,-22.278
0.182,-1.049,0.123,-43.457,-2.441,-15.991
0.178,-1.068,0.130,-41.016,1.770,-8.240
0.164,-1.070,0.137,-36.682,6.775,0.549
0.144,-1.063,0.129,-31.494,12.207,9.644
0.124,-1.040,0.112,-26.184,17.029,16.724
0.115,-1.013,0.117,-21.973,18.066,20.325
0.116,-0.999,0.137,-20.813,16.113,20.508
0.129,-0.988,0.165,-23.254,13.184,18.677
0.144,-0.985,0.186,-28.931,10.315,16.052
0.148,-0.979,0.183,-35.461,8.789,13.550
0.165,-0.974,0.179,-41.870,7.019,11.475
0.183,-0.979,0.183,-48.828,4.761,9.888
0.205,-0.988,0.201,-56.030,2.136,9.705
0.214,-0.993,0.229,-62.805,1.465,11.719
0.197,-1.011,0.238,-67.505,4.272,15.747
0.176,-1.004,0.204,-67.810,9.888,19.653
0.149,-0.996,0.161,-64.575,15.259,22.583
0.142,-0.981,0.134,-56.946,17.151,22.583
0.160,-0.970,0.155,-50.659,14.404,20.630
0.184,-0.971,0.213,-48.889,9.338,18.433
0.213,-0.952,0.280,-53.223,4.944,16.724
0.211,-0.967,0.334,-63.538,1.892,14.893
0.191,-0.958,0.350,-75.134,0.793,12.634
0.176,-0.955,0.344,-85.449,1.587,11.108
0.166,-0.963,0.328,-92.651,2.380,9.094
0.149,-0.964,0.320,-94.849,1.465,7.385
0.144,-0.959,0.320,-94.421,-0.671,8.484
0.131,-0.962,0.328,-89.233,-3.418,9.033
0.123,-0.950,0.339,-81.299,-5.066,10.986
0.136,-0.935,0.368,-72.266,-5.249,12.939
0.152,-0.934,0.417,-64.514,-4.822,14.709
0.151,-0.932,0.457,-59.875,-3.784,16.724
0.168,-0.917,0.478,-58.105,-0.305,18.738
0.169,-0.899,0.484,-58.289,4.883,18.372
0.186,-0.876,0.478,-60.303,9.583,17.029
0.189,-0.856,0.478,-65.430,10.498,16.724
0.181,-0.834,0.480,-72.144,8.362,16.113
0.167,-0.821,0.483,-77.637,6.042,14.282
0.162,-0.826,0.496,-80.566,5.005,11.597
0.141,-0.853,0.504,-82.886,3.967,10.498
0.134,-0.847,0.481,-82.458,3.662,11.475
0.136,-0.826,0.456,-76.050,3.723,10.681
0.137,-0.831,0.434,-68.359,3.052,8.911
0.166,-0.823,0.427,-58.472,1.282,7.385
0.202,-0.827,0.462,-50.049,-1.587,6.348
0.226,-0.824,0.516,-46.997,-4.456,6.714
0.240,-0.817,0.565,-50.354,-6.287,7.446
0.257,-0.805,0.596,-58.716,-6.470,7.690
0.247,-0.803,0.614,-70.068,-6.226,7.568
0.246,-0.799,0.618,-81.604,-5.859,7.507
0.228,-0.805,0.608,-90.637,-5.981,6.470
0.225,-0.802,0.598,-95.154,-5.920,4.883
0.207,-0.825,0.596,-96.008,-6.104,5.066
0.207,-0.806,0.599,-90.759,-5.554,7.141
0.208,-0.804,0.623,-83.557,-3.235,9.399
0.213,-0.784,0.638,-76.538,-0.122,12.268
0.216,-0.750,0.651,-70.801,3.174,14.832
0.209,-0.713,0.664,-67.505,5.920,16.296
0.199,-0.676,0.679,-67.505,6.653,16.418
0.196,-0.653,0.685,-71.838,4.456,14.893
0.190,-0.623,0.687,-79.773,-0.977,12.207
0.181,-0.631,0.691,-89.294,-9.277,7.690
0.185,-0.624,0.712,-98.206,-18.921,1.953
0.173,-0.620,0.717,-105.408,-27.283,-0.244
0.149,-0.612,0.734,-107.239,-31.738,-1.221
0.156,-0.606,0.746,-101.257,-30.090,-1.465
0.160,-0.598,0.755,-91.003,-23.621,-0.061
0.160,-0.580,0.759,-78.003,-14.282,2.869
0.160,-0.552,0.754,-64.331,-4.150,5.737
0.157,-0.532,0.754,-52.429,4.883,6.592
0.159,-0.525,0.752,-44.556,10.132,5.371
0.185,-0.532,0.755,-40.405,12.024,2.380
0.193,-0.542,0.766,-42.419,7.874,0.000
0.190,-0.548,0.770,-49.988,-1.282,-0.977
0.193,-0.545,0.779,-60.608,-12.390,-2.686
0.185,-0.533,0.776,-68.787,-24.414,-6.470
0.190,-0.529,0.781,-74.402,-35.034,-9.705
0.181,-0.517,0.792,-76.111,-42.419,-10.925
0.179,-0.508,0.814,-71.838,-43.518,-10.803
0.175,-0.505,0.846,-63.110,-37.598,-9.033
0.176,-0.500,0.860,-51.147,-26.123,-6.165

